<?xml version="1.0" encoding="UTF-8"?>
<!--
    Author: Friedhelm Matten
    Datum:  21.07.2025
    Letzte Änderung: 24.07.2025

    Die vorliegende Beispiel Datei DGUV_ENLA_Bsp_TestBundle_1 dient der Validierung 
    des 'slicing' in Bundle und Composition sowie der Auflösung der internen Referenzen.
    
    Zu beachten ist dabei:

    Es liegt ein Bundle Dokument vor, das immer als ersten Eintrag eine Composition enthält.
    
    In der DGUV-ENLA-PR-TestBundle.xml Datei erfolgt das slicing für die im Bundle auftretenden Profile
    wie z.B. Composition, VersichertePerson, Leistungserbringer,...
    Dabei ist die Composition der notwendige erste Eintrag bei dem slicing.

    In der DGUV-ENLA-PR-TestComposition.xml Datei erfolgt das slicing für die in der Composition enthaltenen
    Profile, die die Einzelheiten des durch das Bundle dargestellten Dokuments enthalten.


    Durchzuführende Massnahmen:

    1. Gewährleistung der Funktionalität des slicing in dem Bundle
       Hier: Das minimale slicing bezüglich Composition und Unfallversicherungstraeger
    2. Gewährleistung der Funktionalität des slicing in der Composition
       Hier: Unfallversicherungstraeger
    3. Gegentest: VersichertePerson, Leistungserbringer
       Spezielle Einstellung zum Test der Notwendigkeit eines slicing im Bundle und des Eintrags aller notwendigen
       Profile:
       Eintrag der Profile: VersichertePerson, Leistungserbringer die nicht im Bundle vorkommen
    3. Gewährleistung des reibungslosen Zugriffs aller Referenzen auf die entsprechenden korrekten
       Objekte

    
-->
<Bundle xmlns="http://hl7.org/fhir">
    <id value="5d75b64f-a8a1-49b8-8d33-bd16423b3e6e" />
    <meta>
        <profile value="http://fhir.dguv.de/ENLA/Bundle/DGUV-ENLA-PR-TestBundle-2" />
    </meta>
     <identifier>
     <!-- Server Anteil der URL--> 
        <system value="http://fhir.dguv.de/open"/>
        <value value="5d75b64f-a8a1-49b8-8d33-bd16423b3e6e" />
    </identifier> 
    <type value="document" />
    <timestamp value="2025-06-10T12:00:00+01:00" />
    <entry>
        <fullUrl value="http://fhir.dguv.de/Composition/c00f7826-5a3e-49aa-b499-3f8c6599bd2b" />
        <resource>
            <Composition>
                <id value="c00f7826-5a3e-49aa-b499-3f8c6599bd2b" />
                <meta>
                    <profile value="http://fhir.dguv.de/ENLA/Composition/DGUV-ENLA-PR-TestComposition-2" />
                </meta>
                <extension url="http://fhir.dguv.de/ENLA/Extension/DGUV-ENLA-EX-SonstigeBemerkungen">
                    <valueString value="Die sonstige Bemerkung." />
                </extension>
                <status value="final" />
                <type>
                    <coding>
                        <system value="http://fhir.dguv.de/Basis/CodeSystem/DGUV-Basis-CS-Formtexte" />
                        <code value="F 2102" />
                        <display value="Entlassungsbericht aus stationärer Behandlung (DAV/VAV/SAV)" />
                    </coding>
                </type>
                <subject>
                    <!-- 
                    Lokale Referenz auf das Profil VersichertePerson:
                    RelativeURL:
                    Patient/482bb42d-a37b-45f7-8893-0abe669bd8ba
                    -->
                    <reference value="Patient/482bb42d-a37b-45f7-8893-0abe669bd8ba" />
                </subject>
                <date value="2025-06-10T12:00:00+01:00" />
                <author>
                    <!-- 
                    Lokale Referenz auf das Profil Leistungserbringer:
                    RelativeURL:
                    Practitioner/53192032-6365-4659-8cc2-f9a7df67a466
                    -->
                    <reference value="Practitioner/53192032-6365-4659-8cc2-f9a7df67a466" />
                </author>
                <title value="Entlassungsbericht aus stationärer Behandlung" />
                <section>
                    <title value="Unfallversicherungstraeger" />
                    <entry>
                        <!-- 
                        Auswahl des Unfallversicherungstraeger Objektes:
                        RelativeURL:
                        Organization/180f219f-97a8-486d-99d9-ed631fe4fc60
                        -->
                        <reference value="Organization/180f219f-97a8-486d-99d9-ed631fe4fc60" />
                    </entry>
                </section>
                <section>
                    <title value="Krankenkasse" />
                    <entry>
                        <!-- 
                        Auswahl des Krankenkasse Objektes:
                        RelativeURL:
                        Organization/446a540f-7d08-4926-98fe-2abd3094aa92
                        -->                    
                        <reference value="Organization/446a540f-7d08-4926-98fe-2abd3094aa92" />
                    </entry>
                </section>
                <section>
                    <title value="VersichertenVerhaeltnis" />
                    <entry>
                        <!-- 
                        Auswahl des VersichertenVerhaeltnis Objektes:
                        RelativeURL:
                        Coverage/475c6d854-876e-4b9d-8ea9-327a46c9c50f
                        -->                    
                        <reference value="Coverage/475c6d854-876e-4b9d-8ea9-327a46c9c50f" />
                    </entry>
                </section>
                <section>
                    <title value="Pflegekasse" />
                    <entry>
                        <!-- 
                        Auswahl des Pflegekasse Objektes:
                        RelativeURL:
                        Organization/bf64ac16-926b-4082-968a-f7c088364b83f
                        -->                    
                        <reference value="Organization/bf64ac16-926b-4082-968a-f7c088364b83f" />
                    </entry>
                </section>
                <section>
                    <title value="Unfallbetrieb" />
                    <entry>
                        <!-- 
                        Auswahl des Unfallbetrieb Objektes:
                        RelativeURL:
                        Organization/bef1dc10-a361-4eba-8fcc-073f771df44b
                        -->                     
                        <reference value="Organization/bef1dc10-a361-4eba-8fcc-073f771df44b" />
                    </entry>
                </section>
                <section>
                    <title value="Aufenthaltsinformationen" />
                    <entry>
                        <!-- 
                        Auswahl des Aufenthaltsinformationen Objektes:
                        RelativeURL:
                        Encounter/a33633b7-ab47-4341-b4e9-c856bb5e5878
                        -->                    
                        <reference value="Encounter/a33633b7-ab47-4341-b4e9-c856bb5e5878" />
                    </entry>
                </section>
                <section>
                    <title value="DiagnoseFreitext" />
                    <entry>
                        <!-- 
                        Auswahl des DiagnoseFreitext Objektes:
                        RelativeURL:
                        Condition/84507618-4ff5-46d9-9e61-8ab15c9ce2a4
                        -->                    
                        <reference value="Condition/84507618-4ff5-46d9-9e61-8ab15c9ce2a4" />
                    </entry>
                </section>
                <section>
                    <title value="DiagnoseStrukturiert" />
                    <entry>
                        <!-- 
                        Auswahl des DiagnoseStrukturiert Objektes:
                        RelativeURL:
                        Condition/9acff578-cca8-4f9c-9f58-49e5cb91bbab
                        -->
                        <reference value="Condition/9acff578-cca8-4f9c-9f58-49e5cb91bbab" />
                    </entry>
                </section>
                <section>
                    <title value="Therapie" />
                    <entry>
                        <!-- 
                        Auswahl des Therapie Objektes:
                        RelativeURL:
                        Observation/2288ca98-76e8-4daf-bfb3-dd36c0efbb39
                        -->                    
                        <reference value="Observation/2288ca98-76e8-4daf-bfb3-dd36c0efbb39" />
                    </entry>
                </section>
                <section>
                    <title value="Unfallereignis" />
                    <entry>
                        <!-- 
                        Auswahl des Unfallereignis Objektes:
                        RelativeURL:
                        Observation/08b39f82-9dbf-4315-92f5-5f0011d37a5c
                        -->                    
                        <reference value="Observation/08b39f82-9dbf-4315-92f5-5f0011d37a5c" />
                    </entry>
                </section>
                <section>
                    <title value="Aufnahmebefunde" />
                    <entry>
                        <!-- 
                        Auswahl des Aufnahmebefunde Objektes:
                        RelativeURL:
                        Observation/d39c416d-e1a1-43fd-afef-2763fd66473e
                        -->                    
                        <reference value="Observation/d39c416d-e1a1-43fd-afef-2763fd66473e" />
                    </entry>
                </section>
                <section>
                    <title value="Behandlungsverlauf" />
                    <entry>
                        <!-- 
                        Auswahl des Behandlungsverlauf Objektes:
                        RelativeURL:
                        Observation/0c6d28f5-2b67-4308-9d90-6a53ecd9ce7e
                        -->                    
                        <reference value="Observation/0c6d28f5-2b67-4308-9d90-6a53ecd9ce7e" />
                    </entry>
                </section>
                <section>
                    <title value="Konsiliarbefunde" />
                    <entry>
                        <!-- 
                        Auswahl des Konsiliarbefunde Objektes:
                        RelativeURL:
                        Observation/0a25be9c-af37-410b-bd43-6c7d3e1f1681
                        -->                    
                        <reference value="Observation/0a25be9c-af37-410b-bd43-6c7d3e1f1681" />
                    </entry>
                </section>
                <section>
                    <title value="Entlassbefunde" />
                    <entry>
                        <!-- 
                        Auswahl des Entlassbefunde Objektes:
                        RelativeURL:
                        Observation/4f518fd0-15dd-471a-ab4e-fe5ab3fe979e
                        -->                    
                        <reference value="Observation/4f518fd0-15dd-471a-ab4e-fe5ab3fe979e" />
                    </entry>
                </section>
                <section>
                    <title value="DokumentenReferenz" />    
                    <entry>
                        <!-- 
                        Auswahl des DocumentReference Objektes:
                        RelativeURL:
                        DocumentReference/c7b24835-f7b8-4480-a0fe-c0653d6c4050
                        -->                    
                        <reference value="DocumentReference/c7b24835-f7b8-4480-a0fe-c0653d6c4050" />
                    </entry>
                </section>
                <section>
                    <title value="Therapieempfehlung" /> 
                    <entry>
                        <!-- 
                        Auswahl des Therapieempfehlung Objektes:
                        RelativeURL:
                        Observation/f2e30a2a-9070-43aa-9bf2-307ad290eb95
                        -->                    
                        <reference value="Observation/f2e30a2a-9070-43aa-9bf2-307ad290eb95" />
                    </entry>
                </section>
                <section>
                    <title value="MedikationsInformation" /> 
                    <entry>
                        <!-- 
                        Auswahl des MedikationsInformation Objektes:
                        RelativeURL:
                        MedicationStatement/cf72d600-1c4d-44bf-a8b3-ec100f1a4947
                        -->                    
                        <reference value="MedicationStatement/cf72d600-1c4d-44bf-a8b3-ec100f1a4947" />
                    </entry>
                </section>
                <section>
                    <title value="MedikationWirkstoff" />    
                    <entry>
                        <!-- 
                        Auswahl des MedikationWirkstoff Objektes:
                        RelativeURL:
                        Medication/8947dca1-69fd-4184-a55f-8f7f32b0a914
                        -->                   
                        <reference value="Medication/8947dca1-69fd-4184-a55f-8f7f32b0a914" />
                    </entry>
                </section>
                <section>
                    <title value="MedikationRezeptur" />
                    <entry>
                        <!-- 
                        Auswahl des MedikationRezeptur Objektes:
                        RelativeURL:
                        Medication/347b8239-6420-4b3a-a873-6b62e1fa1b0f
                        -->                    
                        <reference value="Medication/347b8239-6420-4b3a-a873-6b62e1fa1b0f" />
                    </entry>
                </section>
                <section>
                    <title value="MedikationArzneimittel" />
                    <entry>
                        <!-- 
                        Auswahl des MedikationArzneimittel Objektes:
                        RelativeURL:
                        Medication/4b28cbef-80e7-4838-b15b-b2d9dfc4461b
                        -->                    
                        <reference value="Medication/4b28cbef-80e7-4838-b15b-b2d9dfc4461b" />
                    </entry>
                </section>
                <section>
                    <title value="WeiterbehandelnderArzt" />
                    <entry>
                        <!-- 
                        Auswahl des WeiterbehandelnderArzt Objektes:
                        RelativeURL:
                        PractitionerRole/ebd25191-272a-4a2f-9b52-8733963b32b8
                        -->                    
                        <reference value="PractitionerRole/ebd25191-272a-4a2f-9b52-8733963b32b8" />
                    </entry>
                </section>
                <section>
                    <title value="WeiterbehandelndeOrganisation" />
                    <entry>
                        <!-- 
                        Auswahl des WeiterbehandelndeOrganisation Objektes:
                        RelativeURL:
                        Organization/c9643334-ed27-4327-9eff-baff968982a0
                        -->                    
                        <reference value="Organization/c9643334-ed27-4327-9eff-baff968982a0" />
                    </entry>
                </section>
                <section>
                    <title value="RehaMassnahmen" />
                    <entry>
                        <!-- 
                        Auswahl des RehaMassnahmen Objektes:
                        RelativeURL:
                        Observation/0f9b10f1-b311-49e8-b395-608303bdaa2d
                        -->                    
                        <reference value="Observation/0f9b10f1-b311-49e8-b395-608303bdaa2d" />
                    </entry>
                </section>
                <section>
                    <title value="Heilmittel" />
                    <entry>
                        <!-- 
                        Auswahl des Heilmittel Objektes:
                        RelativeURL:
                        Observation/8d018e14-21b7-4982-b26f-d3b4812f7a1f
                        -->                    
                        <reference value="Observation/8d018e14-21b7-4982-b26f-d3b4812f7a1f" />
                    </entry>
                </section>
                <section>
                    <title value="Hilfsmittel" />
                    <entry>
                        <!-- 
                        Auswahl des Hilfsmittel Objektes:
                        RelativeURL:
                        Observation/b77a0cc9-62ff-47c5-96b5-a964f313490dl
                        -->                    
                        <reference value="Observation/b77a0cc9-62ff-47c5-96b5-a964f313490dl" />
                    </entry>
                </section>
                <section>
                    <title value="BesondereMassnahmen" />
                    <entry>
                        <!-- 
                        Auswahl des BesondereMassnahmen Objektes:
                        RelativeURL:
                        Observation/3aecc20f-00e2-4d82-ae7b-a703118c9969
                        -->                    
                        <reference value="Observation/3aecc20f-00e2-4d82-ae7b-a703118c9969" />
                    </entry>
                </section>
                <section>
                    <title value="Arbeitsunfaehigkeit" />
                    <entry>
                        <!-- 
                        Auswahl des Arbeitsunfaehigkeit Objektes:
                        RelativeURL:
                        Observation/bbc56617-923d-4076-8bad-43cd861031c7
                        -->                    
                        <reference value="Observation/bbc56617-923d-4076-8bad-43cd861031c7" />
                    </entry>
                </section>
                <section>
                    <title value="PrognoseWiederaufnahmeTaetigkeit" />
                    <entry>
                        <!-- 
                        Auswahl des PrognoseWiederaufnahmeTaetigkeit Objektes:
                        RelativeURL:
                        Observation/f8412800-04b9-446b-b83d-2d772af8099b
                        -->                    
                        <reference value="Observation/f8412800-04b9-446b-b83d-2d772af8099b" />
                    </entry>
                </section>
                <section>
                    <title value="stufenweiseWiedereingliederung" />
                    <entry>
                        <!-- 
                        Auswahl des stufenweiseWiedereingliederung Objektes:
                        RelativeURL:
                        Observation/e04aaff2-34c7-4dfa-80cf-b3c5d5a03058
                        -->                    
                        <reference value="Observation/e04aaff2-34c7-4dfa-80cf-b3c5d5a03058" />
                    </entry>
                </section>
                <section>
                    <title value="Datenschutz" />
                    <entry>
                        <!-- 
                        Auswahl des Datenschutz Objektes:
                        RelativeURL:
                        Observation/dc5b40d7-1c69-401a-a649-145c79c4b571
                        -->                    
                        <reference value="Observation/dc5b40d7-1c69-401a-a649-145c79c4b571" />
                    </entry>
                </section>
                <section>
                    <title value="DArzt" />
                    <entry>
                        <!-- 
                        Auswahl des DArzt Objektes:
                        RelativeURL:
                        PractitionerRole/93ad5198-d79b-4436-9e1e-aaa69acb2d08
                        -->                    
                        <reference value="PractitionerRole/93ad5198-d79b-4436-9e1e-aaa69acb2d08" />
                    </entry>
                </section>
                <section>
                    <title value="DArztOrganisation" />
                    <entry>
                        <!-- 
                        Auswahl des DArztOrganisation Objektes:
                        RelativeURL:
                        Organization/cdc0ceec-dc27-44e5-a7c7-567a754dc912
                        -->                    
                        <reference value="Organization/93ad5198-d79b-4436-9e1e-aaa69acb2d08" />
                    </entry>
                </section>
                <section>
                    <title value="BehandelndeEinrichtung" />
                    <entry>
                        <!-- 
                        Auswahl des BehandelndeEinrichtung Objektes:
                        RelativeURL:
                        Organization/f952b0d1-bb04-402d-b0e6-cef800858f98
                        -->                    
                        <reference value="Organization/f952b0d1-bb04-402d-b0e6-cef800858f98" />
                    </entry>
                </section>
                <section>
                    <title value="AnsprechpartnerFuerRueckfragen" />
                    <entry>
                        <!-- 
                        Auswahl des AnsprechpartnerFuerRueckfragen Objektes:
                        RelativeURL:
                        PractitionerRole/3011936a-df87-4144-a35a-bbaae96bb2cc
                        -->                    
                        <reference value="PractitionerRole/3011936a-df87-4144-a35a-bbaae96bb2cc" />
                    </entry>
                </section>
            </Composition>
        </resource>
    </entry>
    <entry>
        <!--
        Target der Referenz VersichertePerson ist ein "VersichertePerson Objekt"
        -->
        <fullUrl value="http://fhir.dguv.de/Patient/482bb42d-a37b-45f7-8893-0abe669bd8ba" />
        <resource>
            <Patient xmlns="http://hl7.org/fhir">
                <id value="482bb42d-a37b-45f7-8893-0abe669bd8ba"/>
                <meta>
                    <profile value="http://fhir.dguv.de/ENLA/Patient/DGUV-ENLA-PR-VersichertePerson"/>
                </meta>   
                <text>
                    <status value="generated"/>
                    <div xmlns="http://www.w3.org/1999/xhtml">
                    <h1>Hier finden Sie ein Beispiel einer verunfallten Person entsprechend des VersichertePerson-Profils der DGUV</h1>
                    </div>
                </text>
                <extension url="http://hl7.org/fhir/StructureDefinition/patient-nationality">
                <!--extension url="http://hl7.org/fhir/ValueSet/iso3166-1-2|4.0.1" -->      
                    <extension url="code" >
                        <valueCodeableConcept>
                        <coding>
                            <system value="urn:iso:std:iso:3166" />
                            <code value="DE" />
                            <display value="Germany" />
                        </coding>
                        </valueCodeableConcept>
                    </extension>
                    <extension url="period" >
                    <valuePeriod>
                        <start value="2004-11-12"/>
                        <end value="2024-01-01"/>
                    </valuePeriod>
                    </extension>
                </extension>
                <identifier>
                    <type>
                        <coding>
                            <system value="http://fhir.de/CodeSystem/identifier-type-de-basis" />
                            <code value="KVZ10" />
                        </coding>
                    </type>
                    <system value="http://fhir.de/sid/gkv/kvid-10" />
                    <value value="S123456789" />
                </identifier>
                <name>
                    <use value="official" />
                    <family value="Mustermann">
                        <extension url="http://hl7.org/fhir/StructureDefinition/humanname-own-name">
                            <valueString value="Mustermann" />
                        </extension>
                    </family> 
                    <given value="Lionel" />
                </name>
                <telecom>
                    <system value="phone"/>
                    <value value="0049177/00000000"/>
                </telecom>
                <gender value="male"/>
                <birthDate value="2004-11-12"/>
                <address>
                    <type value="both" />
                    <line value="Musterweg 1">
                        <extension url="http://hl7.org/fhir/StructureDefinition/iso21090-ADXP-streetName">
                            <valueString value="Musterweg" />
                        </extension>
                        <extension url="http://hl7.org/fhir/StructureDefinition/iso21090-ADXP-houseNumber">
                            <valueString value="1" />
                        </extension>
                    </line>
                    <city value="Musterhausen" />
                    <postalCode value="11111" />
                    <country value="DE" />
                </address>
            </Patient>
        </resource>
    </entry>
    <entry>
        <!--
        Target der Referenz Leistungserbringer ist ein "Leistungserbringer Objekt"
        -->
        <fullUrl value="http://fhir.dguv.de/Practitioner/53192032-6365-4659-8cc2-f9a7df67a466" />
        <resource>
            <Practitioner xmlns="http://hl7.org/fhir">
                <id value="53192032-6365-4659-8cc2-f9a7df67a466" />
                <meta>
                    <profile value="http://fhir.dguv.de/ENLA/Practitioner/DGUV-ENLA-PR-Leistungserbringer"/> 
                </meta>
                <identifier> 
                    <type>
                        <coding>
                            <system value="http://terminology.hl7.org/CodeSystem/v2-0203" />
                            <code value="LANR" />
                            <display value="Lifelong physician number" />
                        </coding>
                    </type>
                    <system value="https://fhir.kbv.de/NamingSystem/KBV_NS_Base_ANR" />
                    <value value="123456799" />
                </identifier>
                <name>
                    <use value="official"/>
                    <family value="Musteraerztin14">
                        <extension url="http://hl7.org/fhir/StructureDefinition/humanname-own-name">
                                <valueString value="Musteraerztin14" />
                        </extension>
                    </family>
                    <given value="Maria"/>
                    <prefix value="Dr.">
                        <extension url="http://hl7.org/fhir/StructureDefinition/iso21090-EN-qualifier">
                            <valueCode value="AC" />
                        </extension>
                    </prefix>
                </name>
            </Practitioner>
        </resource>
    </entry>
    <entry>
        <!--
        Target der Referenz Unfallversicherungstraeger ist ein "Unfallversicherungstraeger Objekt"
        -->
        <fullUrl value="http://fhir.dguv.de/Organization/180f219f-97a8-486d-99d9-ed631fe4fc60" />
        <resource>            
            <Organization xmlns="http://hl7.org/fhir">
                <id value="180f219f-97a8-486d-99d9-ed631fe4fc60" />
                <meta>
                    <profile value="http://fhir.dguv.de/ENLA/Organization/DGUV-ENLA-PR-Unfallversicherungstraeger" />
                </meta>
                <!--   Institutionskennzeichen   -->
                <identifier>
                    <type>
                        <coding>
                            <system value="http://terminology.hl7.org/CodeSystem/v2-0203" />
                            <code value="XX" />
                            <display value="Organization identifier" />
                        </coding>
                    </type>
                    <system value="http://fhir.de/sid/arge-ik/iknr" />
                    <value value="121192344" />
                </identifier>
                <name value="BG Verwaltung Berlin" />
                <telecom>
                    <system value="phone"/>
                    <value value="030 77003-0"/>
                </telecom>
                <address>
                    <type value="both" />
                    <line value="Markgrafenstraße 18">
                        <extension url="http://hl7.org/fhir/StructureDefinition/iso21090-ADXP-houseNumber">
                            <valueString value="18" />
                        </extension>
                        <extension url="http://hl7.org/fhir/StructureDefinition/iso21090-ADXP-streetName">
                            <valueString value="Markgrafenstraße." />
                        </extension>
                    </line>
                    <city value="Berlin" />
                    <postalCode value="10969" />
                </address>
            </Organization>
        </resource>
    </entry>
</Bundle>