<?xml version="1.0" encoding="UTF-8"?>
<!--
    Author: Friedhelm Matten
    Datum:  21.07.2025
    Letzte Änderung: 24.07.2025

    Die vorliegende Beispiel Datei DGUV_ENLA_Bsp_TestBundle_1 dient der Validierung 
    des 'slicing' in Bundle und Composition sowie der Auflösung der internen Referenzen.
    
    Zu beachten ist dabei:

    Es liegt ein Bundle Dokument vor, das immer als ersten Eintrag eine Composition enthält.
    
    In der DGUV-ENLA-PR-TestBundle.xml Datei erfolgt das slicing für die im Bundle auftretenden Profile
    wie z.B. Composition, VersichertePerson, Leistungserbringer,...
    Dabei ist die Composition der notwendige erste Eintrag bei dem slicing.

    In der DGUV-ENLA-PR-TestComposition.xml Datei erfolgt das slicing für die in der Composition enthaltenen
    Profile, die die Einzelheiten des durch das Bundle dargestellten Dokuments enthalten.


    Durchzuführende Massnahmen:

    1. Gewährleistung der Funktionalität des slicing in dem Bundle
       Hier: Das minimale slicing bezüglich Composition und Unfallversicherungstraeger
    2. Gewährleistung der Funktionalität des slicing in der Composition
       Hier: Unfallversicherungstraeger
    3. Gegentest: VersichertePerson, Leistungserbringer
       Spezielle Einstellung zum Test der Notwendigkeit eines slicing im Bundle und des Eintrags aller notwendigen
       Profile:
       Eintrag der Profile: VersichertePerson, Leistungserbringer die nicht im Bundle vorkommen
    3. Gewährleistung des reibungslosen Zugriffs aller Referenzen auf die entsprechenden korrekten
       Objekte

    
-->
<Bundle xmlns="http://hl7.org/fhir">
    <id value="5d75b64f-a8a1-49b8-8d33-bd16423b3e6e" />
    <meta>
        <profile value="http://fhir.dguv.de/ENLA/Bundle/DGUV-ENLA-PR-TestBundle-2" />
    </meta>
     <identifier>
     <!-- Server Anteil der URL--> 
        <system value="http://fhir.dguv.de/open"/>
        <value value="5d75b64f-a8a1-49b8-8d33-bd16423b3e6e" />
    </identifier> 
    <type value="document" />
    <timestamp value="2025-06-10T12:00:00+01:00" />
    <entry>
        <fullUrl value="http://fhir.dguv.de/Composition/c00f7826-5a3e-49aa-b499-3f8c6599bd2b" />
        <resource>
            <Composition>
                <id value="c00f7826-5a3e-49aa-b499-3f8c6599bd2b" />
                <meta>
                    <profile value="http://fhir.dguv.de/ENLA/Composition/DGUV-ENLA-PR-TestComposition-2" />
                </meta>
                <extension url="http://fhir.dguv.de/ENLA/Extension/DGUV-ENLA-EX-SonstigeBemerkungen">
                    <valueString value="Die sonstige Bemerkung." />
                </extension>
                <status value="final" />
                <type>
                    <coding>
                        <system value="http://fhir.dguv.de/Basis/CodeSystem/DGUV-Basis-CS-Formtexte" />
                        <code value="F 2102" />
                        <display value="Entlassungsbericht aus stationärer Behandlung (DAV/VAV/SAV)" />
                    </coding>
                </type>
                <subject>
                <!-- 
                        Lokale Referenz auf das Profil VersichertePerson:
                        RelativeURL:
                        Patient/482bb42d-a37b-45f7-8893-0abe669bd8ba
                -->
                    <reference value="Patient/482bb42d-a37b-45f7-8893-0abe669bd8ba" />
                </subject>
                <date value="2025-06-10T12:00:00+01:00" />
                <author>
                <!-- 
                        Lokale Referenz auf das Profil Leistungserbringer:
                        RelativeURL:
                        Practitioner/53192032-6365-4659-8cc2-f9a7df67a466
                -->
                    <reference value="Practitioner/53192032-6365-4659-8cc2-f9a7df67a466" />
                </author>
                <title value="Entlassungsbericht aus stationärer Behandlung" />
                <section>
                    <title value="Unfallversicherungstraeger" />
                    <entry>
                <!-- 
                    Auswahl des Unfallversicherungstraeger Objektes:
                    RelativeURL:
                    Organization/180f219f-97a8-486d-99d9-ed631fe4fc60
                -->
                        <reference value="Organization/180f219f-97a8-486d-99d9-ed631fe4fc60" />
                    </entry>
                </section>
                <section>
                    <title value="Krankenkasse" />
                    <entry>
                <!-- 
                    Auswahl des Krankenkasse Objektes:
                    RelativeURL:
                    Organization/446a540f-7d08-4926-98fe-2abd3094aa92
                -->                    
                        <reference value="Organization/446a540f-7d08-4926-98fe-2abd3094aa92" />
                    </entry>
                </section>
                <section>
                    <title value="VersichertenVerhaeltnis" />
                    <entry>
                <!-- 
                    Auswahl des VersichertenVerhaeltnis Objektes:
                    RelativeURL:
                    Coverage/475c6d854-876e-4b9d-8ea9-327a46c9c50f
                -->                    
                        <reference value="Coverage/475c6d854-876e-4b9d-8ea9-327a46c9c50f" />
                    </entry>
                </section>
                <section>
                    <title value="Pflegekasse" />
                    <entry>
                <!-- 
                    Auswahl des Pflegekasse Objektes:
                    RelativeURL:
                    Organization/bf64ac16-926b-4082-968a-f7c088364b83f
                -->                    
                        <reference value="Organization/bf64ac16-926b-4082-968a-f7c088364b83f" />
                    </entry>
                </section>
                <section>
                    <title value="Unfallbetrieb" />
                    <entry>
                <!-- 
                    Auswahl des Unfallbetrieb Objektes:
                    RelativeURL:
                    Organization/bef1dc10-a361-4eba-8fcc-073f771df44b
                -->                     
                        <reference value="Organization/bef1dc10-a361-4eba-8fcc-073f771df44b" />
                    </entry>
                </section>
                <section>
                    <title value="Aufenthaltsinformationen" />
                    <entry>
                <!-- 
                    Auswahl des Aufenthaltsinformationen Objektes:
                    RelativeURL:
                    Encounter/a33633b7-ab47-4341-b4e9-c856bb5e5878
                -->                    
                        <reference value="Encounter/a33633b7-ab47-4341-b4e9-c856bb5e5878" />
                    </entry>
                </section>
                <section>
                    <title value="DiagnoseFreitext" />
                    <entry>
                <!-- 
                    Auswahl des DiagnoseFreitext Objektes:
                    RelativeURL:
                    Condition/84507618-4ff5-46d9-9e61-8ab15c9ce2a4
                -->                    
                        <reference value="Condition/84507618-4ff5-46d9-9e61-8ab15c9ce2a4" />
                    </entry>
                </section>
                <section>
                    <title value="DiagnoseStrukturiert" />
                    <entry>
                <!-- 
                    Auswahl des DiagnoseStrukturiert Objektes:
                    RelativeURL:
                    Condition/9acff578-cca8-4f9c-9f58-49e5cb91bbab
                -->
                        <reference value="Condition/9acff578-cca8-4f9c-9f58-49e5cb91bbab" />
                    </entry>
                </section>
                <section>
                    <title value="Therapie" />
                    <entry>
                <!-- 
                    Auswahl des Therapie Objektes:
                    RelativeURL:
                    Observation/2288ca98-76e8-4daf-bfb3-dd36c0efbb39
                -->                    
                        <reference value="Observation/2288ca98-76e8-4daf-bfb3-dd36c0efbb39" />
                    </entry>
                </section>
                <section>
                    <title value="Unfallereignis" />
                    <entry>
                <!-- 
                    Auswahl des Unfallereignis Objektes:
                    RelativeURL:
                    Observation/08b39f82-9dbf-4315-92f5-5f0011d37a5c
                -->                    
                        <reference value="Observation/08b39f82-9dbf-4315-92f5-5f0011d37a5c" />
                    </entry>
                </section>
                <section>
                    <title value="Aufnahmebefunde" />
                    <entry>
                <!-- 
                    Auswahl des Aufnahmebefunde Objektes:
                    RelativeURL:
                    Observation/d39c416d-e1a1-43fd-afef-2763fd66473e
                -->                    
                        <reference value="Observation/d39c416d-e1a1-43fd-afef-2763fd66473e" />
                    </entry>
                </section>
                <section>
                    <title value="Behandlungsverlauf" />
                    <entry>
                <!-- 
                    Auswahl des Behandlungsverlauf Objektes:
                    RelativeURL:
                    Observation/0c6d28f5-2b67-4308-9d90-6a53ecd9ce7e
                -->                    
                        <reference value="Observation/0c6d28f5-2b67-4308-9d90-6a53ecd9ce7e" />
                    </entry>
                </section>
            </Composition>    
        </resource>
    </entry>
    <entry>
    <!--
        Target der Referenz VersichertePerson ist ein "VersichertePerson Objekt"
    -->
        <fullUrl value="http://fhir.dguv.de/Patient/482bb42d-a37b-45f7-8893-0abe669bd8ba" />
        <resource>
            <Patient xmlns="http://hl7.org/fhir">
                <id value="482bb42d-a37b-45f7-8893-0abe669bd8ba"/>
                <meta>
                    <profile value="http://fhir.dguv.de/ENLA/Patient/DGUV-ENLA-PR-VersichertePerson"/>
                </meta>   
                <text>
                    <status value="generated"/>
                    <div xmlns="http://www.w3.org/1999/xhtml">
                    <h1>Hier finden Sie ein Beispiel einer verunfallten Person entsprechend des VersichertePerson-Profils der DGUV</h1>
                    </div>
                </text>
                <extension url="http://hl7.org/fhir/StructureDefinition/patient-nationality">
                <!--extension url="http://hl7.org/fhir/ValueSet/iso3166-1-2|4.0.1" -->      
                    <extension url="code" >
                        <valueCodeableConcept>
                        <coding>
                            <system value="urn:iso:std:iso:3166" />
                            <code value="DE" />
                            <display value="Germany" />
                        </coding>
                        </valueCodeableConcept>
                    </extension>
                    <extension url="period" >
                    <valuePeriod>
                        <start value="2004-11-12"/>
                        <end value="2024-01-01"/>
                    </valuePeriod>
                    </extension>
                </extension>
                <identifier>
                    <type>
                        <coding>
                            <system value="http://fhir.de/CodeSystem/identifier-type-de-basis" />
                            <code value="KVZ10" />
                        </coding>
                    </type>
                    <system value="http://fhir.de/sid/gkv/kvid-10" />
                    <value value="S123456789" />
                </identifier>
                <name>
                    <use value="official" />
                    <family value="Mustermann">
                        <extension url="http://hl7.org/fhir/StructureDefinition/humanname-own-name">
                            <valueString value="Mustermann" />
                        </extension>
                    </family> 
                    <given value="Lionel" />
                </name>
                <telecom>
                    <system value="phone"/>
                    <value value="0049177/00000000"/>
                </telecom>
                <gender value="male"/>
                <birthDate value="2004-11-12"/>
                <address>
                    <type value="both" />
                    <line value="Musterweg 1">
                        <extension url="http://hl7.org/fhir/StructureDefinition/iso21090-ADXP-streetName">
                            <valueString value="Musterweg" />
                        </extension>
                        <extension url="http://hl7.org/fhir/StructureDefinition/iso21090-ADXP-houseNumber">
                            <valueString value="1" />
                        </extension>
                    </line>
                    <city value="Musterhausen" />
                    <postalCode value="11111" />
                    <country value="DE" />
                </address>
            </Patient>
        </resource>
    </entry>
    <entry>
    <!--
        Target der Referenz Leistungserbringer ist ein "Leistungserbringer Objekt"
    -->
        <fullUrl value="http://fhir.dguv.de/Practitioner/53192032-6365-4659-8cc2-f9a7df67a466" />
        <resource>
            <Practitioner xmlns="http://hl7.org/fhir">
                <id value="53192032-6365-4659-8cc2-f9a7df67a466" />
                <meta>
                    <profile value="http://fhir.dguv.de/ENLA/Practitioner/DGUV-ENLA-PR-Leistungserbringer"/> 
                </meta>
                <identifier> 
                    <type>
                        <coding>
                            <system value="http://terminology.hl7.org/CodeSystem/v2-0203" />
                            <code value="LANR" />
                            <display value="Lifelong physician number" />
                        </coding>
                    </type>
                    <system value="https://fhir.kbv.de/NamingSystem/KBV_NS_Base_ANR" />
                    <value value="123456799" />
                </identifier>
                <name>
                    <use value="official"/>
                    <family value="Musteraerztin14">
                        <extension url="http://hl7.org/fhir/StructureDefinition/humanname-own-name">
                                <valueString value="Musteraerztin14" />
                        </extension>
                    </family>
                    <given value="Maria"/>
                    <prefix value="Dr.">
                        <extension url="http://hl7.org/fhir/StructureDefinition/iso21090-EN-qualifier">
                            <valueCode value="AC" />
                        </extension>
                    </prefix>
                </name>
            </Practitioner>
        </resource>
    </entry>
    <entry>
    <!--
        Target der Referenz Unfallversicherungstraeger ist ein "Unfallversicherungstraeger Objekt"
    -->
        <fullUrl value="http://fhir.dguv.de/Organization/180f219f-97a8-486d-99d9-ed631fe4fc60" />
        <resource>            
            <Organization xmlns="http://hl7.org/fhir">
                <id value="180f219f-97a8-486d-99d9-ed631fe4fc60" />
                <meta>
                    <profile value="http://fhir.dguv.de/ENLA/Organization/DGUV-ENLA-PR-Unfallversicherungstraeger" />
                </meta>
                <!--   Institutionskennzeichen   -->
                <identifier>
                    <type>
                        <coding>
                            <system value="http://terminology.hl7.org/CodeSystem/v2-0203" />
                            <code value="XX" />
                            <display value="Organization identifier" />
                        </coding>
                    </type>
                    <system value="http://fhir.de/sid/arge-ik/iknr" />
                    <value value="121192344" />
                </identifier>
                <name value="BG Verwaltung Berlin" />
                <telecom>
                    <system value="phone"/>
                    <value value="030 77003-0"/>
                </telecom>
                <address>
                    <type value="both" />
                    <line value="Markgrafenstraße 18">
                        <extension url="http://hl7.org/fhir/StructureDefinition/iso21090-ADXP-houseNumber">
                            <valueString value="18" />
                        </extension>
                        <extension url="http://hl7.org/fhir/StructureDefinition/iso21090-ADXP-streetName">
                            <valueString value="Markgrafenstraße." />
                        </extension>
                    </line>
                    <city value="Berlin" />
                    <postalCode value="10969" />
                </address>
            </Organization>
        </resource>
    </entry>
    <entry>
        <!--
        Target der Referenz Krankenkasse ist ein "Krankenkasse Objekt"
        -->
        <fullUrl value="http://fhir.dguv.de/Organization/446a540f-7d08-4926-98fe-2abd3094aa92" />
        <resource>
            <Organization xmlns="http://hl7.org/fhir">
                <id value="446a540f-7d08-4926-98fe-2abd3094aa92" />
                <meta>
                    <profile value="http://fhir.dguv.de/ENLA/Organization/DGUV-ENLA-PR-Krankenkasse" />
                </meta>
                <!--Bei einer Familienversicherung wird hier die hauptversicherte Person angegeben.-->
                <!--extension url="http://fhir.dguv.de/Basis/Extension/DGUV-Basis-EX-Mitgliedsname">          
                    <valueHumanName>
                        <family value="Farad" />
                        <given value="Friedrich" />
                    </valueHumanName>
                </extension -->
                <!--IK-Nummer-->
                <identifier>
                    <type>
                        <coding>
                            <system value="http://terminology.hl7.org/CodeSystem/v2-0203"/>
                            <code value="XX"/>
                            <display value="Organization identifier" />
                        </coding>
                    </type>
                    <system value="http://fhir.de/sid/arge-ik/iknr"/>
                    <value value="107202793"/>
                </identifier>
                <name value="AOK Herzogtum Lauenburg"/>
                <telecom>
                    <system value="phone"/>
                    <value value="01771234"/>
                </telecom>
                <address>
                    <type value="both"/>
                    <line value="Hauptstr. 91">
                        <extension url="http://hl7.org/fhir/StructureDefinition/iso21090-ADXP-streetName">
                            <valueString value="Hauptstraße"/>
                        </extension>
                        <extension url="http://hl7.org/fhir/StructureDefinition/iso21090-ADXP-houseNumber">
                            <valueString value="91"/>
                        </extension>
                    </line>
                    <city value="Mölln"/>
                    <postalCode value="23879"/>
                    <country value="DE"/>
                </address>
            </Organization>
        </resource>
    </entry>
    <entry>
        <!--
        Target der Referenz VersichertenVerhaeltnis ist ein "VersichertenVerhaeltnis Objekt"
        -->
        <fullUrl value="http://fhir.dguv.de/Coverage/475c6d854-876e-4b9d-8ea9-327a46c9c50f"/>
        <resource>
            <Coverage xmlns="http://hl7.org/fhir">
                <id value="475c6d854-876e-4b9d-8ea9-327a46c9c50f" />
                <meta>
                    <profile value="http://fhir.dguv.de/ENLA/Coverage/DGUV-ENLA-PR-VersichertenVerhaeltnis" />
                </meta>
                <extension  url="http://fhir.dguv.de/Basis/Extension/DGUV-Basis-EX-Familienversicherung">
                        <extension url="Familienversichert">
                            <valueBoolean value="true" />
                        </extension>
                        <extension url="Mitgliedsname">  
                            <valueString value="Rudi Fahrad" />
                        </extension>
                </extension>
                <status value="active"/>
                <beneficiary>
                    <reference value="Patient/482bb42d-a37b-45f7-8893-0abe669bd8ba" />
                </beneficiary>
                <payor>
                    <reference value="Organization/180f219f-97a8-486d-99d9-ed631fe4fc60"/>
                </payor>
            </Coverage>
        </resource>
    </entry>
    <entry>
        <!--
        Target der Referenz Pflegekasse ist ein "Pflegekasse Objekt"
        -->    
        <fullUrl value="http://fhir.dguv.de/Organization/bf64ac16-926b-4082-968a-f7c088364b83f" />
        <resource>
            <Organization xmlns="http://hl7.org/fhir">
                <id value="bf64ac16-926b-4082-968a-f7c088364b83f" />
                <meta>
                    <profile value="http://fhir.dguv.de/ENLA/Organization/DGUV-ENLA-PR-Pflegekasse" />
                </meta>
                <identifier>
                    <type>
                        <coding>
                            <system value="http://terminology.hl7.org/CodeSystem/v2-0203" />
                            <code value="XX" />
                            <display value="Organization identifier" />
                        </coding>
                    </type>
                    <system value="http://fhir.de/sid/arge-ik/iknr" />
                    <value value="999999999" />
                </identifier>
                <name value="Pflegekasse Nord-Ostwestfalen Süd"/>
                <telecom>
                    <system value="phone"/>
                    <value value="01751234"/>
                </telecom>
                <address>
                    <type value="both"/>
                    <line value="Nebenstr. 82">
                        <extension url="http://hl7.org/fhir/StructureDefinition/iso21090-ADXP-streetName">
                            <valueString value="Nebenstraße"/>
                        </extension>
                        <extension url="http://hl7.org/fhir/StructureDefinition/iso21090-ADXP-houseNumber">
                            <valueString value="82"/>
                        </extension>
                    </line>
                    <city value="Mölln"/>
                    <postalCode value="23879"/>
                    <country value="DE"/>
                </address>
            </Organization>
        </resource>
    </entry>
    <entry>
        <!--
        Target der Referenz Unfallbetrieb ist ein "Unfallbetrieb Objekt"
        -->  
        <fullUrl value="http://fhir.dguv.de/Organization/bef1dc10-a361-4eba-8fcc-073f771df44b"/>
        <resource>
            <Organization xmlns="http://hl7.org/fhir">
            <id value="bef1dc10-a361-4eba-8fcc-073f771df44b" />
            <meta>
                <profile value="http://fhir.dguv.de/ENLA/Organization/DGUV-ENLA-PR-Unfallbetrieb" />
            </meta>
            <name value="Sankt Augustiner 6 Tage Rennen GmbH"/>
            <telecom>
                <system value="phone"/>
                <value value="01761234"/>
            </telecom>
            <address>
                <type value="both"/>
                <line value="Johann-Lafer-Gasse 2">
                    <extension url="http://hl7.org/fhir/StructureDefinition/iso21090-ADXP-streetName">
                        <valueString value="Johann-Lafer-Gasse"/>
                    </extension>
                    <extension url="http://hl7.org/fhir/StructureDefinition/iso21090-ADXP-houseNumber">
                        <valueString value="2"/>
                    </extension>
                </line>
                <city value="Sankt Augustin"/>
                <postalCode value="53757"/>
                <country value="DE"/>
            </address>
        </Organization>
        </resource>
    </entry>
    <entry>
        <fullUrl value="http://fhir.dguv.de/Encounter/a33633b7-ab47-4341-b4e9-c856bb5e5878"/>
        <!--
        Target der Referenz Aufenthaltsinformationen ist ein "Aufenthaltsinformationen Objekt"
        -->
        <resource>
            <Encounter xmlns="http://hl7.org/fhir">
                <id value="a33633b7-ab47-4341-b4e9-c856bb5e5878" />
                <meta>
                    <profile value="http://fhir.dguv.de/ENLA/Encounter/DGUV-ENLA-PR-Aufenthaltsinformationen" />
                </meta>
                <status value="finished" />
                <class>
                    <system value="http://terminology.hl7.org/ValueSet/v3-ActEncounterCode" />
                    <code value="IMP" />
                    <display value="inpatient encounter" />
                </class>
                <subject>
                    <reference value="Patient/482bb42d-a37b-45f7-8893-0abe669bd8ba" />
                </subject>
                <period>
                    <start value="2024-06-10T12:00:00+01:00" />
                    <end value="2024-06-17T12:00:00+01:00" />
                </period>
                <hospitalization>
                    <admitSource>
                        <coding>
                            <system  value="http://fhir.dguv.de/ENLA/CodeSystem/DGUV-ENLA-CS-Aufnahmeart" />
                            <code value="FB" />
                            <display value="Folgebehandlung" />
                        </coding>
                    </admitSource>
                    <dischargeDisposition>
                        <coding>
                            <system value="http://fhir.dguv.de/ENLA/CodeSystem/DGUV-ENLA-CS-EntlassungsVerlegungsgrund" />
                            <code value="03" />
                            <display value="Behandlung aus sonstigen Gründen beendet" />
                        </coding>
                    </dischargeDisposition>
                </hospitalization>
            </Encounter>
        </resource>
    </entry>
    <entry>
        <!--
        Target der Referenz DiagnoseFreitext ist ein "DiagnoseFreitext Objekt"
        -->    
        <fullUrl value="http://fhir.dguv.de/Condition/84507618-4ff5-46d9-9e61-8ab15c9ce2a4" />
        <resource>
             <Condition xmlns="http://hl7.org/fhir">
                <id value="84507618-4ff5-46d9-9e61-8ab15c9ce2a4"/>
                <meta>
                    <profile value="http://fhir.dguv.de/ENLA/Condition/DGUV-ENLA-PR-DiagnoseFreitext"/>
                </meta>
                <extension url="http://fhir.dguv.de/Basis/Extension/DGUV-Basis-EX-Frakturklassifikation">
                    <extension url="Fraktur">
                        <valueBoolean value="true"/>
                    </extension>
                    <extension url="AO-Klassifikation">
                        <valueString value="12A 12B 12C"/>
                    </extension>
                </extension>
                <code>
                    <text value="Hier steht der Freitext!"/>
                </code>
                <subject>
                    <reference value="Patient/482bb42d-a37b-45f7-8893-0abe669bd8ba"/>
                </subject>
            </Condition>
        </resource>
    </entry>
    <entry>
        <!--
        Target der Referenz DiagnoseStrukturiert ist ein "DiagnoseStrukturiert Objekt"
        -->     
        <fullUrl value="http://fhir.dguv.de/Condition/9acff578-cca8-4f9c-9f58-49e5cb91bbab" />
        <resource>
            <Condition xmlns="http://hl7.org/fhir">
                <id value="9acff578-cca8-4f9c-9f58-49e5cb91bbab"/>
                <meta>
                    <profile value="http://fhir.dguv.de/ENLA/Condition/DGUV-ENLA-PR-DiagnoseStrukturiert"/>
                </meta>
                <code>
                    <coding>
                        <system value="http://fhir.de/CodeSystem/bfarm/icd-10-gm"/>
                        <version value="2019"/>
                        <code value="S06.0"/>
                        <display value="Gehirnerschütterung"/>
                    </coding>
                </code>
                <subject>
                    <reference value="Patient/482bb42d-a37b-45f7-8893-0abe669bd8ba"/>
                </subject>
            </Condition>
        </resource>
    </entry>
    <entry>
        <!--
        Target der Referenz Therapie ist ein "Therapie Objekt"
        -->    
        <fullUrl value="http://fhir.dguv.de/Observation/2288ca98-76e8-4daf-bfb3-dd36c0efbb39" />
        <resource>
            <Observation xmlns="http://hl7.org/fhir">
                <id value="2288ca98-76e8-4daf-bfb3-dd36c0efbb39" />
                <meta>
                    <profile value="http://fhir.dguv.de/ENLA/Observation/DGUV-ENLA-PR-Therapie" />
                </meta>
                <status value="final"/>
                <code>  
                    <coding>
                        <system value="http://fhir.dguv.de/ENLA/CodeSystem/DGUV-ENLA-CS-Teilberichtsinhalt" />
                        <code value="TH" />
                        <display value="Therapie" />
                    </coding>
                </code>
                <subject>
                    <reference value="Patient/482bb42d-a37b-45f7-8893-0abe669bd8ba"/>
                </subject>
                <valueString value="neurologisches und inneres konsil" />
            </Observation>
        </resource>
    </entry>
    <entry>
        <!--
        Target der Referenz Unfallereignis ist ein "Unfallereignis Objekt"
        -->    
        <fullUrl value="http://fhir.dguv.de/Observation/08b39f82-9dbf-4315-92f5-5f0011d37a5c" />
        <resource>
            <Observation xmlns="http://hl7.org/fhir">
            <id value="08b39f82-9dbf-4315-92f5-5f0011d37a5c"/>
            <meta>
                <profile value="http://fhir.dguv.de/ENLA/Observation/DGUV-ENLA-PR-Unfallereignis"/>
            </meta>
            <!--extension url="http://fhir.dguv.de/Basis/Extension/DGUV-Basis-EX-Pflegeunfall">
                <extension url="Pflegeunfall">
                    <valueBoolean value="true"/>
                </extension>
                <extension url="Pflegekasse"> 
                    <valueReference value="Pflegekasse/123" />
                </extension>
                </extension-->
            <status value="final"/>
            <code>
                <coding>
                <system value="http://fhir.dguv.de/Basis/CodeSystem/DGUV-Basis-CS-Verletzungsartenverzeichnis"/>
                <code value="10.1V"/>
                <display value="Schwere Verletzungen und Verletzungskombinationen (Polytrauma) mit einem Injury Severity Score (ISS) zwischen 16 und 24."/>
                </coding>
            </code>
            <subject> 
                <reference value="Farad, Rudi/T995030511" />
            </subject>
            <effectiveDateTime value="2018-08-24T13:00:00+00:00"/>
            <component>
                <code>
                <coding>
                    <system value="http://fhir.dguv.de/Basis/CodeSystem/DGUV-Basis-CS-UnfallereignisComponents"/>
                    <code value="03"/>
                    <display value="Unfallhergang"/>
                </coding>
                </code>
                <valueString value="Der Versicherte ist auf dem Weg zum Sechstagerennen mit seinem Motorrad mit einer geschätzten Geschwindigkeit von 60 km/h gegen eine Leitplanke gefahren"/>
            </component>
            <component>
                <code>
                <coding>
                    <system value="http://fhir.dguv.de/Basis/CodeSystem/DGUV-Basis-CS-UnfallereignisComponents"/>
                    <code value="04"/>
                    <display value="Beschwerden/Klagen"/>
                </coding>
                </code>
                <valueString value="Starke Schmerzen rechter Oberschenkel, Gefühlsstörung im Fuss"/>
            </component>
            <component>
                <code>
                <coding>
                    <system value="http://fhir.dguv.de/Basis/CodeSystem/DGUV-Basis-CS-UnfallereignisComponents"/>
                    <code value="05"/>
                    <display value="Beschäftigt als"/>
                </coding>
                </code>
                <valueString value="Schrittmacher"/>
            </component>
            <component>
                <code>
                <coding>
                    <system value="http://fhir.dguv.de/Basis/CodeSystem/DGUV-Basis-CS-UnfallereignisComponents"/>
                    <code value="06"/>
                    <display value="Beschäftigungsbeginn"/>
                </coding>
                </code>
                <valueDateTime value="2021-04-01"/>
            </component>
            </Observation>
        </resource>
    </entry>
    <entry>
        <!--
        Target der Referenz Aufnahmebefunde ist ein "Aufnahmebefunde Objekt"
        -->    
        <fullUrl value="http://fhir.dguv.de/Observation/d39c416d-e1a1-43fd-afef-2763fd66473e" />
        <resource>
            <Observation xmlns="http://hl7.org/fhir">
            <id value="d39c416d-e1a1-43fd-afef-2763fd66473e" />
            <meta>
                <profile value="http://fhir.dguv.de/ENLA/Observation/DGUV-ENLA-PR-Aufnahmebefunde" />
            </meta>
            <status value="final" />
            <category>
                <coding>
                    <system value="http://fhir.dguv.de/ENLA/CodeSystem/DGUV-ENLA-CS-BefundKategorie" />
                        <code value="vitalparameter" />
                        <display value="Vitalparameter" />
                </coding>
            </category>
            <code>
                <coding>
                    <system value="http://fhir.dguv.de/ENLA/CodeSystem/DGUV-ENLA-CS-Teilberichtsinhalt" />
                    <code value="Aufnahme" />
                    <display value="Aufnahmebefund" />
                </coding>
            </code>
            <subject>
                <reference value="Patient/482bb42d-a37b-45f7-8893-0abe669bd8ba" />
            </subject>
            <valueString value="Befundergebnis" />
        </Observation>
        </resource>
    </entry>
        <entry>
        <!--
        Target der Referenz Behandlungsverlauf ist ein "Behandlungsverlauf Objekt"
        -->    
        <fullUrl value="http://fhir.dguv.de/Observation/0c6d28f5-2b67-4308-9d90-6a53ecd9ce7e" />
        <resource>
            <Observation xmlns="http://hl7.org/fhir">
                <id value="0c6d28f5-2b67-4308-9d90-6a53ecd9ce7e" />
                <meta>
                    <profile value="http://fhir.dguv.de/ENLA/Observation/DGUV-ENLA-PR-Behandlungsverlauf" />
                </meta>
                <extension url="http://fhir.dguv.de/ENLA/Extension/DGUV-ENLA-EX-Besonderheiten">
                    <valueString value="Komplikation" />
                </extension>
                <status value="final"/>
                <code>
                    <coding>
                        <system value="http://fhir.dguv.de/ENLA/CodeSystem/DGUV-ENLA-CS-Teilberichtsinhalt" />
                        <code value="BV" />
                        <display value="Behandlungsverlauf" />
                    </coding>
                </code>
                <subject>
                    <reference value="Patient/482bb42d-a37b-45f7-8893-0abe669bd8ba" />
                </subject>
                <performer>
                    <reference value="DArzt/93ad5198-d79b-4436-9e1e-aaa69acb2d08" />
                </performer>
                <valueString value="Freitext" />
            </Observation>
        </resource>
    </entry>
</Bundle>