<Bundle xmlns="http://hl7.org/fhir">
  <id value="dguv-test-bundle"/>
  <meta>
    <profile value="http://fhir.dguv.de/ENLA/Bundle/DGUV-ENLA-PR-TestBundle"/>
  </meta>
  <type value="document"/>
  <timestamp value="2025-09-01T09:00:00+02:00"/>

  <!-- Composition -->
  <entry>
    <fullUrl value="urn:uuid:composition-001"/>
    <resource>
      <Composition>
        <id value="composition-001"/>
        <meta>
          <profile value="http://fhir.dguv.de/ENLA/Composition/DGUV-ENLA-PR-TestComposition"/>
        </meta>
        <status value="final"/>
        <type>
          <coding>
            <system value="http://loinc.org"/>
            <code value="34133-9"/>
            <display value="Summarization of Episode Note"/>
          </coding>
        </type>
        <subject>
          <reference value="urn:uuid:versicherteperson-1234"/>
        </subject>
        <date value="2025-09-01T09:00:00+02:00"/>
        <author>
          <reference value="urn:uuid:arzt-5678"/>
        </author>
        <title value="Unfallbericht DGUV"/>

        <!-- Diagnose Section -->
        <section>
          <title value="Diagnosen"/>
          <code>
            <coding>
              <system value="http://loinc.org"/>
              <code value="11450-4"/>
              <display value="Problem List"/>
            </coding>
          </code>
        </section>

        <!-- Medikation Section -->
        <section>
          <title value="Medikation"/>
          <code>
            <coding>
              <system value="http://loinc.org"/>
              <code value="10160-0"/>
              <display value="Medication List"/>
            </coding>
          </code>
        </section>

        <!-- Befunde Section -->
        <section>
          <title value="Befunde"/>
          <code>
            <coding>
              <system value="http://loinc.org"/>
              <code value="18776-5"/>
              <display value="Diagnostic studies"/>
            </coding>
          </code>
        </section>
      </Composition>
    </resource>
  </entry>

  <!-- VersichertePerson -->
  <entry>
    <fullUrl value="urn:uuid:versicherteperson-1234"/>
    <resource>
      <Patient>
        <id value="versicherteperson-1234"/>
        <meta>
          <profile value="http://fhir.dguv.de/ENLA/StructureDefinition/DGUV-ENLA-PR-VersichertePerson"/>
        </meta>
        <identifier>
          <system value="http://fhir.dguv.de/sid/versichertennummer"/>
          <value value="A123456789"/>
        </identifier>
        <name>
          <family value="Musterfrau"/>
          <given value="Erika"/>
        </name>
        <gender value="female"/>
        <birthDate value="1980-01-01"/>
      </Patient>
    </resource>
  </entry>

  <!-- Arzt -->
  <entry>
    <fullUrl value="urn:uuid:arzt-5678"/>
    <resource>
      <Practitioner>
        <id value="arzt-5678"/>
        <meta>
          <profile value="http://hl7.org/fhir/StructureDefinition/Practitioner"/>
        </meta>
        <name>
          <family value="Hausarzt"/>
          <given value="Max"/>
        </name>
      </Practitioner>
    </resource>
  </entry>
</Bundle>